File: data/raw/nvpm.csv
,UID No,nvPMDB No,Manufacturer,Engine Identification,Combustor Description,Eng Type,B/P Ratio,Pressure Ratio,Rated Thrust (kN),Data Superseded,Superseded by UID No,Fuel Flow T/O (kg/sec),Fuel Flow C/O (kg/sec),Fuel Flow App (kg/sec),Fuel Flow Idle (kg/sec),Fuel LTO Cycle (kg)  ,Fuel Heat of Combustion (MJ/kg),Fuel Hydrogen Content (% mass),Fuel Aromatics Content (% vol),Fuel Naphthalene Content (% vol),Fuel Sulphur Content (ppm by mass),nvPM Mass Concentration Max (mg/m³),nvPM Mass Concentration Characteristic (mg/m³),nvPM Mass Concentration Characteristic (% of CAEP/10 Limit),nvPM Mass Concentration Number Test,nvPM Mass Concentration Number Eng,nvPM EImass T/O (mg/kg),nvPM EImass C/O (mg/kg),nvPM EImass App (mg/kg),nvPM EImass Idle (mg/kg),nvPM EImass Max (mg/kg),nvPMmass Number Test,nvPMmass Number Eng,LTOmass/Foo Avg (mg/kN),LTOmass/Foo Characteristic (mg/kN),LTOmass/Foo Characteristic (% of CAEP/11 InP Limit),LTOmass/Foo Characteristic (% of CAEP/11 NT Limit),nvPM LTO Total Mass (mg),nvPM EInum T/O (#/kg),nvPM EInum C/O (#/kg),nvPM Einum App (#/kg),nvPM EInum Idle (#/kg),nvPM EInum Max (#/kg),nvPMnum Number Test,nvPMnum Number Eng,LTOnum/Foo Avg (#/kN),LTOnum/Foo Characteristic (#/kN),LTOnum/Foo Characteristic (% of CAEP/11 InP Limit),LTOnum/Foo Characteristic (% of CAEP/11 NT Limit),nvPM LTO Total Particle Number (#),nvPM EImass_SL T/O (mg/kg),nvPM EImass_SL C/O (mg/kg),nvPM EImass_SL App (mg/kg),nvPM EImass_SL Idle (mg/kg),nvPM EInum_SL T/O (#/kg),nvPM EInum_SL C/O (#/kg),nvPM EInum_SL App (#/kg),nvPM EInum_SL Idle (#/kg),Ambient Baro Min (kPa),Ambient Baro Max (kPa),Ambient Temp Min (K),Ambient Temp Max (K),Humidity Min (kg/kg),Humidity Max (kg/kg),Test Organisation,Test Location,Initial Test Date,Final Test Date,Remark 1,Remark 2,Remark 3,Remark 4,Remark 5,Remark 6,Remark 7,Remark 8
0,01P14RR101,1,Rolls-Royce plc,Trent 768,Phase5,MTF,5.15,34.4788,304.258,,,2.90696,2.3749,0.781006,0.259224,1027.41,43.1,13.6,19.4,2.0,400.0,374.458,481.99,11.9595,3,1,84.684,97.1492,15.2285,4.31817,96.7845,3,1,149.199,207.393,59.6814,96.9126,45394.9,296546650977752.6,438072717514541.7,389851711163327.2,547588441291880.8,520415411340541.5,3,1,1538329194682472.2,2138350284518310.0,51.2794,76.9191,4.6805e+17,90.7764,105.201,18.1273,6.48247,417991854772399.4,655289757405577.9,852621945661641.1,2075222065507558.5,101.027,101.282,289.25,293.193,0.00735835,0.00862372,Rolls-Royce plc,Derby,2014-06-02,2014-06-02,Certification Report EDNS01000788666,,,,,,,
1,01P14RR102,1,Rolls-Royce plc,Trent 772,Phase5,MTF,5.03,36.3303,320.272,,,3.13929,2.53033,0.821346,0.270317,1084.67,43.1,13.6,19.4,2.0,400.0,380.626,489.929,12.3952,3,1,72.6512,94.9136,17.0708,4.14342,95.782,3,1,144.855,201.355,57.9438,94.091,46392.8,238247381026259.16,393998451087460.3,408905160552372.0,451572499573154.7,544106661135241.75,3,1,1355224065528219.0,1883825501151263.5,45.1757,67.7635,4.3404e+17,77.6414,102.445,20.1909,6.06721,338735227180478.94,572987154188161.4,871145760991058.5,1664720854852442.2,101.027,101.282,289.25,293.193,0.00735835,0.00862372,Rolls-Royce plc,Derby,2014-06-02,2014-06-02,Certification Report EDNS01000788666,Data valid for Trent 772B and 772C,,,,,,
2,01P18RR103,1,Rolls-Royce plc,Trent 970-84,Phase5 Tiled,TF,8.45016,38.0035,338.75,,,2.60541,2.15741,0.720501,0.255249,965.314,43.1155,13.75,17.8,1.67,365,2125.19,2492.3,64.3911,3,2,63.3531,75.4819,60.8489,6.60877,104.025,3,2,122.75,150.651,43.3528,70.3976,41581.7,245338382727337.3,357934448184677.0,1008964597242928.8,415614623034463.2,1126589419360654.0,3,2,1383740521808342.5,1698257881453537.8,40.7256,61.0884,4.68742e+17,68.5174,82.3712,71.5468,8.80126,324486222667973.9,559982259276008.2,2509245142738334.0,1042639598511521.8,99.7,100.5,276.6,286.7,0.0024,0.01116,Rolls-Royce plc,Derby,2015-11-18,2016-04-25,Certification Report EDNS01000750023,,,,,,,
3,01P18RR104,1,Rolls-Royce plc,Trent 972-84,Phase5 Tiled,TF,8.41294,38.6822,345.952,,,2.67181,2.2103,0.735126,0.25822,983.23,43.1155,13.75,17.8,1.67,365,2125.19,2492.3,64.8939,3,2,62.4422,73.4884,63.5204,6.45086,103.964,3,2,122.137,149.898,43.1361,70.0458,42253.5,231354800976251.88,340757422589118.75,1028988151191978.9,414788736537249.0,1126023188547559.0,3,2,1370169626286202.5,1681602388667406.2,40.3262,60.4893,4.74012e+17,67.4466,80.099,74.566,8.61196,305079245970998.3,519555423745802.5,2543378890463205.0,1045130099020027.2,99.7,100.5,276.6,286.7,0.0024,0.01116,Rolls-Royce plc,Derby,2015-11-18,2016-04-25,Certification Report EDNS01000750023,,,,,,,
4,01P18RR105,1,Rolls-Royce plc,Trent 972E-84,Phase5 Tiled,TF,8.41294,38.6822,345.952,,,2.67181,2.2103,0.735126,0.25822,983.23,43.1155,13.75,17.8,1.67,365.0,2125.19,2492.3,64.8939,3,2,62.4422,73.4884,63.5204,6.45086,103.964,3,2,122.137,149.898,43.1361,70.0458,42253.5,231354800976251.88,340757422589118.75,1028988151191978.9,414788736537249.0,1126023188547559.0,3,2,1370169626286202.5,1681602388667406.2,40.3262,60.4893,4.74012e+17,67.4466,80.099,74.566,8.61196,305079245970998.3,519555423745802.5,2543378890463205.0,1045130099020027.2,99.7375,100.47,276.603,286.7,0.002401052,0.0111638,Rolls-Royce plc,Derby,2015-11-18,2016-04-25,Certification Report EDNS01000750023,,,,,,,
5,01P19RR106,1,Rolls-Royce plc,Trent 1000-AE3,Phase5 Tiled,TF,9.14026,43.1772,310.864,Yes,02P23RR126,2.32686,1.90807,0.642506,0.243694,883.957,43.3373,13.97,15.9,0.11,300.0,2649.08,3409.81,85.305,3,1,55.1251,94.581,70.3242,18.7686,151.786,3,1,151.797,211.005,60.7208,98.6003,47188.1,173700579311523.4,329819905766269.06,840051614463112.5,446511941156724.75,964254436901839.0,3,1,1284580494848697.8,1785627599178061.8,42.8208,64.2312,3.9933e+17,59.258,102.475,81.4645,22.6748,237720341242239.28,492776832094976.1,1888115168740655.8,892189577820407.1,100.779,101.559,287.007,292.579,0.008002406,0.009,Rolls-Royce plc,Derby,2018-10-04,2018-10-04,Certification Report EDNS01000740804,,,,,,,
6,01P19RR107,1,Rolls-Royce plc,Trent 1000-CE3,Phase5 Tiled,TF,9.01653,46.0013,334.68,Yes,02P23RR127,2.55619,2.08963,0.687371,0.25564,946.959,43.3373,13.97,15.9,0.11,300.0,2649.08,3409.81,87.7011,3,1,44.8013,76.3119,76.5156,19.1381,152.96,3,1,137.786,191.528,55.1161,89.4993,46114,107891745353601.12,261719357333398.75,867552436838648.4,460138224180249.3,969338256300101.1,3,1,1226232240053483.8,1704520767380433.2,40.8758,61.3137,4.10395e+17,47.9974,82.3977,88.2247,23.0541,145612462859429.16,373337950813093.6,1935823620003876.2,911539540725719.1,100.779,101.559,287.007,292.579,0.008002406,0.009,Rolls-Royce plc,Derby,2018-10-04,2018-10-04,Certification Report EDNS01000740804,,,,,,,
7,01P19RR108,1,Rolls-Royce plc,Trent 1000-D3,Phase5 Tiled,TF,9.01653,46.0013,334.68,Yes,02P23RR128,2.55619,2.08963,0.687371,0.25564,946.959,43.3373,13.97,15.9,0.11,300.0,2649.08,3409.81,87.7011,3,1,44.8013,76.3119,76.5156,19.1381,152.96,3,1,137.786,191.528,55.1161,89.4993,46114,107891745353601.12,261719357333398.75,867552436838648.4,460138224180249.3,969338256300101.1,3,1,1226232240053483.8,1704520767380433.2,40.8758,61.3137,4.10395e+17,47.9974,82.3977,88.2247,23.0541,145612462859429.16,373337950813093.6,1935823620003876.2,911539540725719.1,100.779,101.559,287.007,292.579,0.008002406,0.009,Rolls-Royce plc,Derby,2018-10-04,2018-10-04,Certification Report EDNS01000740804,,,,,,,
8,01P19RR109,1,Rolls-Royce plc,Trent 1000-G3,Phase5 Tiled,TF,9.074,44.6969,323.728,Yes,02P23RR129,2.44924,2.00547,0.666631,0.250174,917.854,43.3373,13.97,15.9,0.11,300.0,2649.08,3409.81,86.6146,3,1,48.6841,84.4271,73.6268,18.9856,152.443,3,1,143.784,199.867,57.5156,93.3957,46547,136954415726714.83,292072549479383.2,855175901583300.5,453809529141752.06,967110633696283.9,3,1,1252087780329440.8,1740461190338394.0,41.7377,62.6065,4.05336e+17,52.233,91.3032,85.0778,22.9003,185599334775388.22,425024318840276.56,1915605637097649.8,902355842660940.5,100.779,101.559,287.007,292.579,0.008002406,0.009,Rolls-Royce plc,Derby,2018-10-04,2018-10-04,Certification Report EDNS01000740804,,,,,,,
9,01P19RR110,1,Rolls-Royce plc,Trent 1000-H3,Phase5 Tiled,TF,9.28204,40.3476,287.137,Yes,02P23RR130,2.10752,1.7323,0.598326,0.23231,823.181,43.3373,13.97,15.9,0.11,300.0,2649.08,3409.81,82.7371,3,1,71.5551,114.045,64.1533,18.3136,150.392,3,1,168.076,233.634,67.2327,109.175,48260.9,244875979430235.1,408815296199537.8,809598074979886.5,435385621379116.56,958026640704147.0,3,1,1355444992491456.8,1884132600071527.2,45.183,67.7746,3.89199e+17,77.2185,123.992,74.6573,22.1854,347048518487424.44,645342352048905.9,1824966948770241.8,877797413060262.4,100.779,101.559,287.007,292.579,0.008002406,0.009,Rolls-Royce plc,Derby,2018-10-04,2018-10-04,Certification Report EDNS01000740804,,,,,,,
10,01P19RR111,1,Rolls-Royce plc,Trent 1000-J3,Phase5 Tiled,TF,8.93421,47.9558,350.902,Yes,02P23RR131,2.72092,2.21689,0.718595,0.263592,990.575,43.3373,13.97,15.9,0.11,300.0,2649.08,3409.81,89.2488,3,1,41.5701,65.3419,80.9354,19.3164,153.666,3,1,130.443,181.322,52.1791,84.73,45772.9,70917536306603.88,218020701962718.6,884727251403255.4,469324043326364.5,972287331549675.6,3,1,1189714765722548.0,1653759752185916.0,39.6585,59.4878,4.17474e+17,44.4602,70.3894,93.0202,23.2268,95436739920099.55,303401290601305.5,1959862798141251.5,925422467240937.5,100.779,101.559,287.007,292.579,0.008002406,0.009,Rolls-Royce plc,Derby,2018-10-04,2018-10-04,Certification Report EDNS01000740804,,,,,,,
11,01P19RR112,1,Rolls-Royce plc,Trent 1000-K3,Phase5 Tiled,TF,8.93421,47.9558,350.902,Yes,02P23RR132,2.72092,2.21689,0.718595,0.263592,990.575,43.3373,13.97,15.9,0.11,300.0,2649.08,3409.81,89.2488,3,1,41.5701,65.3419,80.9354,19.3164,153.666,3,1,130.443,181.322,52.1791,84.73,45772.9,70917536306603.88,218020701962718.6,884727251403255.4,469324043326364.5,972287331549675.6,3,1,1189714765722548.0,1653759752185916.0,39.6585,59.4878,4.17474e+17,44.4602,70.3894,93.0202,23.2268,95436739920099.55,303401290601305.5,1959862798141251.5,925422467240937.5,100.779,101.559,287.007,292.579,0.008002406,0.009,Rolls-Royce plc,Derby,2018-10-04,2018-10-04,Certification Report EDNS01000740804,,,,,,,
12,01P19RR113,1,Rolls-Royce plc,Trent 1000-L3,Phase5 Tiled,TF,9.01653,46.0013,334.68,Yes,02P23RR133,2.55619,2.08963,0.687371,0.25564,946.959,43.3373,13.97,15.9,0.11,300.0,2649.08,3409.81,87.7011,3,1,44.8013,76.3119,76.5156,19.1381,152.96,3,1,137.786,191.528,55.1161,89.4993,46114,107891745353601.12,261719357333398.75,867552436838648.4,460138224180249.3,961466640230606.0,3,1,1221458224638219.5,1704520767380433.2,40.8758,61.3137,4.10395e+17,47.9974,82.3977,88.2247,23.0541,145612462859429.16,373337950813093.6,1935823620003876.2,911539540725719.1,100.779,101.559,287.007,292.579,0.008002406,0.009,Rolls-Royce plc,Derby,2018-10-04,2018-10-04,Certification Report EDNS01000740804,,,,,,,
13,01P19RR114,1,Rolls-Royce plc,Trent 1000-M3,Phase5 Tiled,TF,8.91709,48.7886,358.055,Yes,02P23RR134,2.80167,2.27388,0.732405,0.267041,1010.18,43.3373,13.97,15.9,0.11,300.0,2649.08,3409.81,89.9153,3,1,40.9655,61.2044,82.915,19.385,153.94,3,1,128.028,177.965,51.213,83.1612,45841.1,58335608011964.34,199881873612321.4,891677419222725.5,473516390130790.8,973240369576652.6,3,1,1175391907687131.5,1633850302595401.0,39.1811,58.7716,4.20855e+17,43.7915,65.8687,95.1624,23.2908,78568392474827.12,275837385978110.03,1968030559007069.0,931970351902644.0,100.779,101.559,287.007,292.579,0.008002406,0.009,Rolls-Royce plc,Derby,2018-10-04,2018-10-04,Certification Report EDNS01000740804,,,,,,,
14,01P19RR115,1,Rolls-Royce plc,Trent 1000-N3,Phase5 Tiled,TF,8.91709,48.7886,358.055,Yes,02P23RR135,2.80167,2.27388,0.732405,0.267041,1010.18,43.3373,13.97,15.9,0.11,300.0,2649.08,3409.81,89.9153,3,1,40.9655,61.2044,82.915,19.385,153.94,3,1,128.028,177.965,51.213,83.1612,45841.1,58335608011964.34,199881873612321.4,891677419222725.5,473516390130790.8,973240369576652.6,3,1,1175391907687131.5,1633850302595401.0,39.1811,58.7716,4.20855e+17,43.7915,65.8687,95.1624,23.2908,78568392474827.12,275837385978110.03,1968030559007069.0,931970351902644.0,100.779,101.559,287.007,292.579,0.008002406,0.009,Rolls-Royce plc,Derby,2018-10-04,2018-10-04,Certification Report EDNS01000740804,,,,,,,
15,01P19RR116,1,Rolls-Royce plc,Trent 1000-P3,Phase5 Tiled,TF,9.01653,46.0013,334.68,Yes,02P23RR136,2.55619,2.08963,0.687371,0.25564,946.959,43.3373,13.97,15.9,0.11,300.0,2649.08,3409.81,87.7011,3,1,44.8013,76.3119,76.5156,19.1381,152.96,3,1,137.786,191.528,55.1161,89.4993,46114,107891745353601.12,261719357333398.75,867552436838648.4,460138224180249.3,969338256300101.1,3,1,1226232240053483.8,1704520767380433.2,40.8758,61.3137,4.10395e+17,47.9974,82.3977,88.2247,23.0541,145612462859429.16,373337950813093.6,1935823620003876.2,911539540725719.1,100.779,101.559,287.007,292.579,0.008002406,0.009,Rolls-Royce plc,Derby,2018-10-04,2018-10-04,Certification Report EDNS01000740804,,,,,,,
16,01P19RR117,1,Rolls-Royce plc,Trent 1000-Q3,Phase5 Tiled,TF,8.93421,47.9558,350.902,Yes,02P23RR137,2.72092,2.21689,0.718595,0.263592,990.575,43.3373,13.97,15.9,0.11,300.0,2649.08,3409.81,89.2488,3,1,41.5701,65.3419,80.9354,19.3164,153.666,3,1,130.443,181.322,52.1791,84.73,45772.9,70917536306603.88,218020701962718.6,884727251403255.4,469324043326364.5,972287331549675.6,3,1,1189714765722548.0,1653759752185916.0,39.6585,59.4878,4.17474e+17,44.4602,70.3894,93.0202,23.2268,95436739920099.55,303401290601305.5,1959862798141251.5,925422467240937.5,100.779,101.559,287.007,292.579,0.008002406,0.009,Rolls-Royce plc,Derby,2018-10-04,2018-10-04,Certification Report EDNS01000740804,,,,,,,
17,01P19RR118,1,Rolls-Royce plc,Trent 1000-R3,Phase5 Tiled,TF,8.88349,49.5509,363.873,Yes,02P23RR138,2.87194,2.32192,0.743517,0.269895,1026.6,43.3373,13.97,15.9,0.11,300.0,2649.08,3409.81,90.4434,3,1,40.8116,58.3213,84.522,19.4339,154.135,3,1,126.59,175.966,50.6376,82.227,46062.7,54813240550246.836,186351432873114.8,896970859860659.1,476756216909836.75,973882690569250.1,3,1,1166663541943678.2,1621717461695410.2,38.8901,58.3352,4.24518e+17,43.6229,62.7209,96.8993,23.3354,74252332651953.53,255778289903668.9,1973548802267886.2,937121719840194.8,100.779,101.559,287.007,292.579,0.008002406,0.009,Rolls-Royce plc,Derby,2018-10-04,2018-10-04,Certification Report EDNS01000740804,,,,,,,
18,01P19RR119,1,Rolls-Royce plc,Trent7000-72,Phase5 Tiled,TF,8.93939,45.7702,327.918,Yes,02P23RR141,2.502,2.03951,0.670805,0.258873,939.134,43.3373,13.97,15.9,0.11,300.0,2649.08,3409.81,87.0358,3,1,48.0692,84.073,74.0088,18.8269,152.496,3,1,143.947,200.094,57.5809,93.5017,47203,132855499113987.58,290761164537883.44,856860767760874.0,448311037949742.75,967309531755056.5,3,1,1254073396955032.8,1743221291291399.2,41.8039,62.7058,4.11234e+17,51.5624,90.9142,85.4946,22.736,179909241368896.5,422738563689677.8,1918485533635507.5,894650313518390.6,100.779,101.559,287.007,292.579,0.008002406,0.009,Rolls-Royce plc,Derby,2018-10-04,2018-10-04,Certification Report EDNS01000740804,,,,,,,
19,01P19RR120,1,Rolls-Royce plc,Trent7000-72C,Phase5 Tiled,TF,8.93939,45.7702,327.918,Yes,02P23RR142,2.502,2.03951,0.670805,0.258873,939.134,43.3373,13.97,15.9,0.11,300.0,2649.08,3409.81,87.0358,3,1,48.0692,84.073,74.0088,18.8269,152.496,3,1,143.947,200.094,57.5809,93.5017,47203,132855499113987.58,290761164537883.44,856860767760874.0,448311037949742.75,967309531755056.5,3,1,1254073396955032.8,1743221291291399.2,41.8039,62.7058,4.11234e+17,51.5624,90.9142,85.4946,22.736,179909241368896.5,422738563689677.8,1918485533635507.5,894650313518390.6,100.779,101.559,287.007,292.579,0.008002406,0.009,Rolls-Royce plc,Derby,2018-10-04,2018-10-04,Certification Report EDNS01000740804,,,,,,,
20,02P23RR126,2,Rolls-Royce plc,Trent 1000-AE3,Phase5 Tiled,TF,9.14026,43.1772,310.864,,,2.32686,1.90807,0.642506,0.243694,883.957,43.3373,13.97,15.9,0.11,300.0,2649.08,3409.81,85.305,3,1,55.1251,94.581,70.3242,18.7686,151.786,3,1,151.797,211.005,60.7208,98.6003,47188.1,173551713884702.8,326335425254839.5,841282192001879.6,445266620610053.7,958956190568291.6,3,1,1280798020768177.8,1780369781440336.0,42.6947,64.0421,3.98154e+17,59.258,102.475,81.4645,22.6748,237521795962746.56,487717763315682.06,1890923326511861.8,889631480917572.1,100.779,101.559,287.007,292.579,0.008002406,0.009,Rolls-Royce plc,Derby,2018-10-04,2018-10-04,Certification Report EDNS01000740804,Correction of minor error in reported nvPM data,,,,,,
21,02P23RR127,2,Rolls-Royce plc,Trent 1000-CE3,Phase5 Tiled,TF,9.01653,46.0013,334.68,,,2.55619,2.08963,0.687371,0.25564,946.959,43.3373,13.97,15.9,0.11,300.0,2649.08,3409.81,87.7011,3,1,44.8013,76.3119,76.5156,19.1381,152.96,3,1,137.786,191.528,55.1161,89.4993,46114,130296042828618.88,252640286446462.34,867903470255408.6,458565380588610.2,964010469139328.1,3,1,1224235399458098.2,1701745064578952.2,40.8092,61.2139,4.09727e+17,47.9974,82.3977,88.2247,23.0541,175827956792629.53,360836562204927.6,1936618956466238.2,908344068408236.2,100.779,101.559,287.007,292.579,0.008002406,0.009,Rolls-Royce plc,Derby,2018-10-04,2018-10-04,Certification Report EDNS01000740804,Correction of minor error in reported nvPM data,,,,,,
22,02P23RR128,2,Rolls-Royce plc,Trent 1000-D3,Phase5 Tiled,TF,9.01653,46.0013,334.68,,,2.55619,2.08963,0.687371,0.25564,946.959,43.3373,13.97,15.9,0.11,300.0,2649.08,3409.81,87.7011,3,1,44.8013,76.3119,76.5156,19.1381,152.96,3,1,137.786,191.528,55.1161,89.4993,46114,130296042828618.88,252640286446462.34,867903470255408.6,458565380588610.2,964010469139328.1,3,1,1224235399458098.2,1701745064578952.2,40.8092,61.2139,4.09727e+17,47.9974,82.3977,88.2247,23.0541,175827956792629.53,360836562204927.6,1936618956466238.2,908344068408236.2,100.779,101.559,287.007,292.579,0.008002406,0.009,Rolls-Royce plc,Derby,2018-10-04,2018-10-04,Certification Report EDNS01000740804,Correction of minor error in reported nvPM data,,,,,,
23,02P23RR129,2,Rolls-Royce plc,Trent 1000-G3,Phase5 Tiled,TF,9.074,44.6969,323.728,,,2.44924,2.00547,0.666631,0.250174,917.854,43.3373,13.97,15.9,0.11,300.0,2649.08,3409.81,86.6146,3,1,48.6841,84.4271,73.6268,18.9856,152.443,3,1,143.784,199.867,57.5156,93.3957,46547,147753884329502.16,284458962544115.5,855949114319511.0,452374967079809.8,961795799025157.6,3,1,1247946257150615.2,1734704277384786.2,41.5996,62.3994,4.03995e+17,52.233,91.3032,85.0778,22.9003,200033476079836.88,414311007057904.7,1917364848179974.8,899426315800623.1,100.779,101.559,287.007,292.579,0.008002406,0.009,Rolls-Royce plc,Derby,2018-10-04,2018-10-04,Certification Report EDNS01000740804,Correction of minor error in reported nvPM data,,,,,,
24,02P23RR130,2,Rolls-Royce plc,Trent 1000-H3,Phase5 Tiled,TF,9.28204,40.3476,287.137,,,2.10752,1.7323,0.598326,0.23231,823.181,43.3373,13.97,15.9,0.11,300.0,2649.08,3409.81,82.7371,3,1,71.5551,114.045,64.1533,18.3136,150.392,3,1,168.076,233.634,67.2327,109.175,48260.9,236022257835539.5,417370290369688.25,811570179682638.4,434505619961917.2,952764426433025.9,3,1,1359404058743064.2,1889635889273094.5,45.315,67.9725,3.90335e+17,77.2185,123.992,74.6573,22.1854,334936652701234.56,658661697593723.1,1829466221053477.8,875973542246082.1,100.779,101.559,287.007,292.579,0.008002406,0.009,Rolls-Royce plc,Derby,2018-10-04,2018-10-04,Certification Report EDNS01000740804,Correction of minor error in reported nvPM data,,,,,,
25,02P23RR131,2,Rolls-Royce plc,Trent 1000-J3,Phase5 Tiled,TF,8.93421,47.9558,350.902,,,2.72092,2.21689,0.718595,0.263592,990.575,43.3373,13.97,15.9,0.11,300.0,2649.08,3409.81,89.2488,3,1,41.5701,65.3419,80.9354,19.3164,153.666,3,1,130.443,181.322,52.1791,84.73,45772.9,110833782311789.42,210951132338723.75,884413014661165.0,467588653224085.2,966942311377458.4,3,1,1194630731090553.2,1660593176383866.0,39.8224,59.7336,4.19199e+17,44.4602,70.3894,93.0202,23.2268,150343245424223.9,293884371931694.44,1959157065069487.5,921922955765305.5,100.779,101.559,287.007,292.579,0.008002406,0.009,Rolls-Royce plc,Derby,2018-10-04,2018-10-04,Certification Report EDNS01000740804,Correction of minor error in reported nvPM data,,,,,,
26,02P23RR132,2,Rolls-Royce plc,Trent 1000-K3,Phase5 Tiled,TF,8.93421,47.9558,350.902,,,2.72092,2.21689,0.718595,0.263592,990.575,43.3373,13.97,15.9,0.11,300.0,2649.08,3409.81,89.2488,3,1,41.5701,65.3419,80.9354,19.3164,153.666,3,1,130.443,181.322,52.1791,84.73,45772.9,110833782311789.42,210951132338723.75,884413014661165.0,467588653224085.2,966942311377458.4,3,1,1194630731090553.2,1660593176383866.0,39.8224,59.7336,4.19199e+17,44.4602,70.3894,93.0202,23.2268,150343245424223.9,293884371931694.44,1959157065069487.5,921922955765305.5,100.779,101.559,287.007,292.579,0.008002406,0.009,Rolls-Royce plc,Derby,2018-10-04,2018-10-04,Certification Report EDNS01000740804,Correction of minor error in reported nvPM data,,,,,,
27,02P23RR133,2,Rolls-Royce plc,Trent 1000-L3,Phase5 Tiled,TF,9.01653,46.0013,334.68,,,2.55619,2.08963,0.687371,0.25564,946.959,43.3373,13.97,15.9,0.11,300.0,2649.08,3409.81,87.7011,3,1,44.8013,76.3119,76.5156,19.1381,152.96,3,1,137.786,191.528,55.1161,89.4993,46114,130296042828618.88,252640286446462.34,867903470255408.6,458565380588610.2,964010469139328.1,3,1,1224235399458098.2,1701745064578952.2,40.8092,61.2139,4.09727e+17,47.9974,82.3977,88.2247,23.0541,175827956792629.53,360836562204927.6,1936618956466238.2,908344068408236.2,100.779,101.559,287.007,292.579,0.008002406,0.009,Rolls-Royce plc,Derby,2018-10-04,2018-10-04,Certification Report EDNS01000740804,Correction of minor error in reported nvPM data,,,,,,
28,02P23RR134,2,Rolls-Royce plc,Trent 1000-M3,Phase5 Tiled,TF,8.91709,48.7886,358.055,,,2.80167,2.27388,0.732405,0.267041,1010.18,43.3373,13.97,15.9,0.11,300.0,2649.08,3409.81,89.9153,3,1,40.9655,61.2044,82.915,19.385,153.94,3,1,128.028,177.965,51.213,83.1612,45841.1,103709238921765.3,195325516197096.38,891064444980153.5,471720960785230.7,967889609695535.4,3,1,1184093963890674.0,1645946571991484.5,39.4711,59.2067,4.23971e+17,43.7915,65.8687,95.1624,23.2908,141485416884119.84,269738405760083.1,1966660349105570.0,928362032586359.8,100.779,101.559,287.007,292.579,0.008002406,0.009,Rolls-Royce plc,Derby,2018-10-04,2018-10-04,Certification Report EDNS01000740804,Correction of minor error in reported nvPM data,,,,,,
29,02P23RR135,2,Rolls-Royce plc,Trent 1000-N3,Phase5 Tiled,TF,8.91709,48.7886,358.055,,,2.80167,2.27388,0.732405,0.267041,1010.18,43.3373,13.97,15.9,0.11,300.0,2649.08,3409.81,89.9153,3,1,40.9655,61.2044,82.915,19.385,153.94,3,1,128.028,177.965,51.213,83.1612,45841.1,103709238921765.3,195325516197096.38,891064444980153.5,471720960785230.7,967889609695535.4,3,1,1184093963890674.0,1645946571991484.5,39.4711,59.2067,4.23971e+17,43.7915,65.8687,95.1624,23.2908,141485416884119.84,269738405760083.1,1966660349105570.0,928362032586359.8,100.779,101.559,287.007,292.579,0.008002406,0.009,Rolls-Royce plc,Derby,2018-10-04,2018-10-04,Certification Report EDNS01000740804,Correction of minor error in reported nvPM data,,,,,,
30,02P23RR136,2,Rolls-Royce plc,Trent 1000-P3,Phase5 Tiled,TF,9.01653,46.0013,334.68,,,2.55619,2.08963,0.687371,0.25564,946.959,43.3373,13.97,15.9,0.11,300.0,2649.08,3409.81,87.7011,3,1,44.8013,76.3119,76.5156,19.1381,152.96,3,1,137.786,191.528,55.1161,89.4993,46114,130296042828618.88,252640286446462.34,867903470255408.6,458565380588610.2,964010469139328.1,3,1,1224235399458098.2,1701745064578952.2,40.8092,61.2139,4.09727e+17,47.9974,82.3977,88.2247,23.0541,175827956792629.53,360836562204927.6,1936618956466238.2,908344068408236.2,100.779,101.559,287.007,292.579,0.008002406,0.009,Rolls-Royce plc,Derby,2018-10-04,2018-10-04,Certification Report EDNS01000740804,Correction of minor error in reported nvPM data,,,,,,
31,02P23RR137,2,Rolls-Royce plc,Trent 1000-Q3,Phase5 Tiled,TF,8.93421,47.9558,350.902,,,2.72092,2.21689,0.718595,0.263592,990.575,43.3373,13.97,15.9,0.11,300.0,2649.08,3409.81,89.2488,3,1,41.5701,65.3419,80.9354,19.3164,153.666,3,1,130.443,181.322,52.1791,84.73,45772.9,110833782311789.42,210951132338723.75,884413014661165.0,467588653224085.2,966942311377458.4,3,1,1194630731090553.2,1660593176383866.0,39.8224,59.7336,4.19199e+17,44.4602,70.3894,93.0202,23.2268,150343245424223.9,293884371931694.44,1959157065069487.5,921922955765305.5,100.779,101.559,287.007,292.579,0.008002406,0.009,Rolls-Royce plc,Derby,2018-10-04,2018-10-04,Certification Report EDNS01000740804,Correction of minor error in reported nvPM data,,,,,,
32,02P23RR138,2,Rolls-Royce plc,Trent 1000-R3,Phase5 Tiled,TF,8.88349,49.5509,363.873,,,2.87194,2.32192,0.743517,0.269895,1026.6,43.3373,13.97,15.9,0.11,300.0,2649.08,3409.81,90.4434,3,1,40.8116,58.3213,84.522,19.4339,154.135,3,1,126.59,175.966,50.6376,82.227,46062.7,99613180453605.55,184355784771313.8,896117462908385.5,474920271854864.56,968528026617816.0,3,1,1177290581007790.2,1636489548245468.8,39.2444,58.8665,4.28385e+17,43.6229,62.7209,96.8993,23.3354,136431501773882.69,253114109139215.53,1971648927427271.2,933441596647606.5,100.779,101.559,287.007,292.579,0.008002406,0.009,Rolls-Royce plc,Derby,2018-10-04,2018-10-04,Certification Report EDNS01000740804,Correction of minor error in reported nvPM data,,,,,,
33,02P23RR139,2,Rolls-Royce plc,Trent7000-68,Phase5 Tiled,TF,9.15518,42.9717,308.738,,,2.28796,1.87571,0.627776,0.245376,877.141,43.3373,13.97,15.9,0.11,300.0,2649.08,3409.81,85.0791,3,1,60.3387,101.34,67.7556,18.2739,151.308,3,1,155.773,216.531,62.3111,101.183,48092.9,193478954787465.28,355987022200078.0,829235710173689.0,433758327736935.5,956767830916715.1,3,1,1288171918644088.2,1790619847990114.2,42.9405,64.4108,3.97707e+17,64.9497,109.93,78.6407,22.142,267643273422992.2,541723866960041.7,1867176895810427.8,875096194351713.6,100.779,101.559,287.007,292.579,0.008002406,0.009,Rolls-Royce plc,Derby,2018-10-04,2018-10-04,Certification Report EDNS01000740804,Correction of minor error in reported nvPM data,,,,,,
34,02P23RR140,2,Rolls-Royce plc,Trent7000-70,Phase5 Tiled,TF,9.09338,44.089,317.772,,,2.37297,1.94294,0.644608,0.249717,900.397,43.3373,13.97,15.9,0.11,300.0,2649.08,3409.81,86.0139,3,1,54.6517,94.1092,70.2076,18.4681,151.812,3,1,149.915,208.389,59.9681,97.378,47638.8,171716633282733.22,324325418358911.8,840746471491797.6,437672423874651.44,958989225182814.1,3,1,1261471928942393.8,1753505600420341.5,42.0505,63.0757,4.00861e+17,58.7415,101.955,81.3366,22.3534,234796330079716.47,484117067359420.9,1889904258678307.8,879810838241234.4,100.779,101.559,287.007,292.579,0.008002406,0.009,Rolls-Royce plc,Derby,2018-10-04,2018-10-04,Certification Report EDNS01000740804,Correction of minor error in reported nvPM data,,,,,,
35,02P23RR141,2,Rolls-Royce plc,Trent7000-72,Phase5 Tiled,TF,8.93939,45.7702,327.918,,,2.502,2.03951,0.670805,0.258873,939.134,43.3373,13.97,15.9,0.11,300.0,2649.08,3409.81,87.0358,3,1,48.0692,84.073,74.0088,18.8269,152.496,3,1,143.947,200.094,57.5809,93.5017,47203,145142502143383.84,283044578951379.06,857579127030976.4,447015852471469.7,961993506499225.9,3,1,1250433316303935.8,1738161407150313.8,41.6825,62.5238,4.1004e+17,51.5624,90.9142,85.4946,22.736,196346174227907.78,411891333762948.7,1920119169793732.0,891993636880345.9,100.779,101.559,287.007,292.579,0.008002406,0.009,Rolls-Royce plc,Derby,2018-10-04,2018-10-04,Certification Report EDNS01000740804,Correction of minor error in reported nvPM data,,,,,,
36,02P23RR142,2,Rolls-Royce plc,Trent7000-72C,Phase5 Tiled,TF,8.93939,45.7702,327.918,,,2.502,2.03951,0.670805,0.258873,939.134,43.3373,13.97,15.9,0.11,300.0,2649.08,3409.81,87.0358,3,1,48.0692,84.073,74.0088,18.8269,152.496,3,1,143.947,200.094,57.5809,93.5017,47203,145142502143383.84,283044578951379.06,857579127030976.4,447015852471469.7,961993506499225.9,3,1,1250433316303935.8,1738161407150313.8,41.6825,62.5238,4.1004e+17,51.5624,90.9142,85.4946,22.736,196346174227907.78,411891333762948.7,1920119169793732.0,891993636880345.9,100.779,101.559,287.007,292.579,0.008002406,0.009,Rolls-Royce plc,Derby,2018-10-04,2018-10-04,Certification Report EDNS01000740804,Correction of minor error in reported nvPM data,,,,,,
37,02P23RR143,2,Rolls-Royce plc,Trent7000-72D,Phase5 Tiled,TF,8.93939,45.7702,327.918,,,2.502,2.03951,0.670805,0.258873,939.134,43.3373,13.97,15.9,0.11,300.0,2649.08,3409.81,87.0358,3,1,48.0692,84.073,74.0088,18.8269,152.496,3,1,143.947,200.094,57.5809,93.5017,47203,145142502143383.84,283044578951379.06,857579127030976.4,447015852471469.7,961993506499225.9,3,1,1250433316303935.8,1738161407150313.8,41.6825,62.5238,4.1004e+17,51.5624,90.9142,85.4946,22.736,196346174227907.78,411891333762948.7,1920119169793732.0,891993636880345.9,100.779,101.559,287.007,292.579,0.008002406,0.009,Rolls-Royce plc,Derby,2018-10-04,2018-10-04,Certification Report EDNS01000740804,Correction of minor error in reported nvPM data,,,,,,
38,01P18RR121,1,Rolls-Royce plc,Trent XWB-75,Phase5 Tiled,TF,9.28,36.7678,334.035,,,2.4105,1.97956,0.715471,0.269881,955.27,43.1823,13.84,16.8,1.22667,373.333,2381.33,2619.44,67.3243,4,3,53.3442,85.9068,81.9725,25.392,132.258,4,3,157.512,177.818,51.1708,83.0927,52614.3,248767310199623.4,418722603382556.8,972760228891280.6,778268155368245.6,1046382148481137.0,4,3,1883922678394588.8,2126803655898158.2,51.0025,76.5037,6.29296e+17,58.0922,94.1845,94.4221,31.3246,377188359444575.2,716890155902468.1,2128137969810791.2,1818410697694984.8,98.6,101.9,283.0,295.0,0.00062,0.00964,Rolls-Royce plc,Derby,2014-07-03,2018-12-08,Certification report EDNS01000844195,,,,,,,
39,01P18RR122,1,Rolls-Royce plc,Trent XWB-79B,Phase5 Tiled,TF,9.15,38.8098,355.168,,,2.60098,2.12912,0.75549,0.279678,1007.9,43.1823,13.84,16.8,1.22667,373.333,2381.33,2619.44,68.8663,4,3,44.9455,73.3438,87.3722,25.1454,132.437,4,3,147.355,166.352,47.8711,77.7347,52335.7,201485391119502.66,350714267300236.2,983168405317651.4,777171040946489.4,1048324289494825.6,4,3,1796106067037691.2,2027665462900983.5,48.6251,72.9376,6.3792e+17,48.8021,80.226,100.32,31.0531,293740416287398.8,575553610034506.5,2140179227100465.8,1833155548770504.8,98.6,101.9,283.0,295.0,0.00062,0.00964,Rolls-Royce plc,Derby,2014-07-03,2018-12-08,Certification report EDNS01000844195,,,,,,,
40,01P18RR123,1,Rolls-Royce plc,Trent XWB-79,Phase5 Tiled,TF,9.15,38.8098,355.168,,,2.60098,2.12912,0.75549,0.279678,1007.9,43.1823,13.84,16.8,1.22667,373.333,2381.33,2619.44,68.8663,4,3,44.9455,73.3438,87.3722,25.1454,132.437,4,3,147.355,166.352,47.8711,77.7347,52335.7,201485391119502.66,350714267300236.2,983168405317651.4,777171040946489.4,1048324289494825.6,4,3,1796106067037691.2,2027665462900983.5,48.6251,72.9376,6.3792e+17,48.8021,80.226,100.32,31.0531,293740416287398.8,575553610034506.5,2140179227100465.8,1833155548770504.8,98.6,101.9,283.0,295.0,0.00062,0.00964,Rolls-Royce plc,Derby,2014-07-03,2018-12-08,Certification report EDNS01000844195,,,,,,,
41,01P18RR124,1,Rolls-Royce plc,Trent XWB-84,Phase5 Tiled,TF,9.01,41.1,379.046,,,2.81858,2.30616,0.801015,0.29068,1068.5,43.1823,13.84,16.8,1.22667,373.333,2381.33,2619.44,70.5114,4,3,40.8576,60.0768,93.1738,25.0573,132.622,4,3,138.24,156.063,44.9101,72.9265,52399.5,162964165289373.72,283143386937483.3,992492970558498.4,774864813690549.9,1050338373133399.1,4,3,1708645023404991.0,1928928678488361.8,46.2573,69.3859,6.47656e+17,44.209,65.5373,106.625,30.9517,233901532758509.62,441673601488276.8,2148485156964298.0,1848506195942571.8,98.6,101.9,283.0,295.0,0.00062,0.00964,Rolls-Royce plc,Derby,2014-07-03,2018-12-08,Certification report EDNS01000844195,,,,,,,
42,01P21RR125,1,Rolls-Royce plc,Trent XWB-97,Phase5 Tiled (Improved),TF,8.059,48.4132,436.749,,,3.49783,2.79805,0.918077,0.300838,1205.9,43.3714,14.0256,15.4333,0.193333,300.0,1217.09,1338.79,37.885,5,3,43.5427,35.1256,58.9524,8.26277,64.7147,5,3,82.9709,93.6677,26.9547,43.77,36237.4,194751025162717.84,210203415077744.38,926615300683885.6,483204561815870.5,1013951031729803.5,5,3,1229970683674765.2,1388542203290545.5,33.2984,49.9476,5.37188e+17,47.3694,38.6561,68.4,10.9506,285875416976472.75,321664268102678.7,1753915388821853.0,1200109046572583.0,98.5,102.0,282.3,294.1,0.00306,0.00795,Rolls-Royce plc,Derby,2020-04-15,2020-04-29,Smoke Improved Combustor,Data from Certification Report EDNS01000886411,,,,,,
43,01P04BR013,1,Rolls-Royce Deutschland,BR700-710A2-20,,MTF,4.19,24.16,65.61,,,0.722556,0.598101,0.216332,0.0912232,303.525,43.33,13.9467,15.4333,0.16,44.6667,2598.74,3345.02,40.067,3,1,608.491,556.929,5.6004,11.1919,608.868,3,1,980.319,1362.69,42.104,170.876,64318.7,3969487370925324.0,5719155104046891.0,948546250834986.9,1303332129700047.5,6973154727359068.0,3,1,1.22955e+16,1.70914e+16,88.5458,178.059,8.0671e+17,667.957,627.737,7.80689,15.5103,6326229413213089.0,9859005436668584.0,2554251439271886.5,3452904329508028.0,100.3,100.6,287.6,291.7,0.00736,0.00801,Rolls-Royce Deutschland,Dahlewitz,2019-10-11,2019-10-12,Certification Report EDNS01000832272 Issue 2,,,,,,,
44,01P06BR014,1,Rolls-Royce Deutschland,BR700-710C4-11,Annular,MTF,4.05,24.95,68.77,,,0.753223,0.619664,0.220877,0.0905934,307.767,43.33,13.9467,15.4333,0.16,44.6667,2649.61,3410.49,41.9766,3,1,600.956,581.392,8.31286,9.94648,612.764,3,1,994.811,1382.83,43.6425,178.287,68413.2,3674739137375111.5,5356789184381612.0,1067436105722207.9,1223492983895306.2,7004721050920909.0,3,1,1.1399e+16,1.58452e+16,83.6311,169.587,7.8391e+17,659.705,650.202,11.3897,13.9224,5813909594295659.0,9042024500639390.0,2803053622298044.0,3286457608755910.0,100.3,100.6,287.6,291.7,0.00736,0.00801,Rolls-Royce Deutschland,Dahlewitz,2019-10-11,2019-10-12,Certification Report EDNS01000832272 Issue 2,,,,,,,
45,01P20BR015,1,Rolls-Royce Deutschland,BR700-710D5-21,Phase5 Tiled,MTF,4.62,33.14,68.4378,,,0.681672,0.563961,0.197462,0.0795775,274.605,43.3553,13.9833,15.4667,0.353333,10.0,337.452,434.357,5.33126,3,1,63.3388,81.3964,114.833,188.237,188.247,3,1,536.001,745.066,23.4615,95.7766,36682.7,313178009155905.8,635876113701256.9,1573596228962562.8,2691250193398163.5,2819551789621959.5,3,1,6794067173383765.0,9444074469535398.0,49.7478,100.788,4.64971e+17,69.1784,90.8837,132.063,217.327,490898350655368.6,1093982089282403.9,3015416663912474.0,5225616465140887.0,101.2,102.0,283.9,287.8,0.00539,0.00777,Rolls-Royce Deutschland,Dahlewitz,2017-03-29,2017-03-30,Certification Report EDNS01000564837 Issue 4,,,,,,,
46,01P11BR016,1,Rolls-Royce Deutschland,BR700-725A1-12,Z-ring,MTF,4.35,26.16,75.6998,,,0.788931,0.650415,0.22072,0.0848617,304.347,43.29,13.85,16.875,0.4675,10.75,982.006,1151.64,14.9668,3,2,216.667,227.252,20.8459,22.4384,231.806,3,2,406.404,498.778,16.5181,68.5407,30764.8,1131789438708233.8,1650590341103784.5,1088598942766098.1,1343246092237220.5,2372336027831773.5,3,2,5478267119883103.0,6723450073494236.0,37.0108,76.5468,4.14704e+17,236.91,251.594,26.6855,29.6567,1721564294103904.2,2631826672575305.5,2578271939085593.5,3389477269307384.0,99.0,99.8,291.8,296.9,0.0051,0.00767,Rolls-Royce Deutschland,Dahlewitz,2016-05-12,2016-05-13,Certification Report EDNS01000426081 Issue 4,,,,,,,
47,01P06AL028,1,Rolls-Royce Corporation,AE3007A1,Type 3 (reduced emissions),MTF,4.82958,17.7001,35.0102,,,0.385675,0.32425,0.118561,0.0499993,165.453,43.1995,13.69,16.2,0.415,81.2,202.092,260.0,2.1,3,1,43.1427,34.8851,9.84816,18.4055,43.1427,3,1,111.619,155.2,4.0,15.4,3907.79,282685684968022.4,309218994336635.9,325901143990138.56,638163020866510.5,638163020866510.5,3,1,2195453578934425.8,3050000000000000.0,13.4,25.3,7.68633e+16,48.2803,39.7541,12.7352,25.6789,674799676200927.8,795652925491779.1,1244650620047368.8,2478775183236977.5,98.8,99.9,272.8,283.2,0.00179,0.00674,MS&T,Indianapolis,2015-03-23,2015-03-25,Certification Report EDNS04000123846,,,,,,,
48,01P06AL029,1,Rolls-Royce Corporation,AE3007A1/1,Type 3 (reduced emissions),MTF,4.82958,17.7001,35.0102,,,0.385675,0.32425,0.118561,0.0499993,165.453,43.1995,13.69,16.2,0.415,81.2,202.092,260.0,2.1,3,1,43.1427,34.8851,9.84816,18.4055,43.1427,3,1,111.619,155.2,4.0,15.4,3907.79,282685684968022.4,309218994336635.9,325901143990138.56,638163020866510.5,638163020866510.5,3,1,2195453578934425.8,3050000000000000.0,13.4,25.3,7.68633e+16,48.2803,39.7541,12.7352,25.6789,674799676200927.8,795652925491779.1,1244650620047368.8,2478775183236977.5,98.8,99.9,272.8,283.2,0.00179,0.00674,MS&T,Indianapolis,2015-03-23,2015-03-25,Certification Report EDNS04000123846,,,,,,,
49,01P06AL030,1,Rolls-Royce Corporation,AE3007A1/3,Type 3 (reduced emissions),MTF,4.85851,17.1487,33.5653,,,0.368813,0.310245,0.114428,0.0490588,160.437,43.1995,13.69,16.2,0.415,81.2,188.352,242.0,1.9,3,1,41.3455,32.8059,9.98624,18.7923,41.3455,3,1,110.125,153.1,3.9,15.0,3696.38,293709885152151.06,312347026235327.6,332255816409537.4,658652921412769.8,658652921412769.8,3,1,2290267770587668.5,3180000000000000.0,13.9,26.1,7.68735e+16,46.4698,37.5777,12.9134,26.2898,715176392577451.1,818551126279227.1,1276081607063982.8,2566006989942539.0,98.8,99.9,272.8,283.2,0.00179,0.00674,MS&T,Indianapolis,2015-03-23,2015-03-25,Certification Report EDNS04000123846,,,,,,,
50,01P06AL031,1,Rolls-Royce Corporation,AE3007A1P,Type 3 (reduced emissions),MTF,4.82958,17.7001,35.0102,,,0.385675,0.32425,0.118561,0.0499993,165.453,43.1995,13.69,16.2,0.415,81.2,202.092,260.0,2.1,3,1,43.1427,34.8851,9.84816,18.4055,43.1427,3,1,111.619,155.2,4.0,15.4,3907.79,282685684968022.4,309218994336635.9,325901143990138.56,638163020866510.5,638163020866510.5,3,1,2195453578934425.8,3050000000000000.0,13.4,25.3,7.68633e+16,48.2803,39.7541,12.7352,25.6789,674799676200927.8,795652925491779.1,1244650620047368.8,2478775183236977.5,98.8,99.9,272.8,283.2,0.00179,0.00674,MS&T,Indianapolis,2015-03-23,2015-03-25,Certification Report EDNS04000123846,,,,,,,
51,01P06AL032,1,Rolls-Royce Corporation,AE3007A1E,Type 3 (reduced emissions),MTF,4.778,18.6264,37.411,,,0.414914,0.346942,0.125301,0.0514165,173.505,43.1995,13.69,16.2,0.415,81.2,224.3,289.0,2.4,3,1,45.7,38.0395,9.72188,17.9045,45.7,3,1,114.055,158.5,4.1,16.0,4266.93,260027596323743.84,300852446216196.56,316690223258971.0,611921977128110.5,611921977128110.5,3,1,2055943048991284.0,2860000000000000.0,12.7,24.1,7.6915e+16,50.7997,43.0232,12.5654,24.874,599904650780506.2,752151003404411.8,1196046164902926.5,2367991382113998.5,98.8,99.9,272.8,283.2,0.00179,0.00674,MS&T,Indianapolis,2015-03-23,2015-03-25,Certification Report EDNS04000123846,,,,,,,
52,01P10AL033,1,Rolls-Royce Corporation,AE3007A2,Type 3 (reduced emissions),MTF,4.79,20.197,42.2331,,,0.466294,0.387921,0.138251,0.0546188,189.175,43.1995,13.69,16.2,0.415,81.2,266.677,343.0,3.1,3,1,48.7993,43.8218,9.97889,16.6735,48.7993,3,1,117.24,163.0,4.4,17.0,4951.4,197332190524651.03,267616590137579.88,298832370835393.25,550514084772766.0,550514084772766.0,3,1,1761417868206275.8,2450000000000000.0,11.2,21.3,7.43901e+16,53.5436,48.8669,12.8094,22.8463,421736711486604.5,627785939035082.1,1085532736699575.5,2114515699173402.0,98.8,99.9,272.8,283.2,0.00179,0.00674,MS&T,Indianapolis,2015-03-23,2015-03-25,Certification Report EDNS04000123846,,,,,,,
53,01P06AL034,1,Rolls-Royce Corporation,AE3007A3,Type 3 (reduced emissions),MTF,4.85851,17.1487,33.5653,,,0.368813,0.310245,0.114428,0.0490588,160.437,43.1995,13.69,16.2,0.415,81.2,188.352,242.0,1.9,3,1,41.3455,32.8059,9.98624,18.7923,41.3455,3,1,110.125,153.1,3.9,15.0,3696.38,293709885152151.06,312347026235327.6,332255816409537.4,658652921412769.8,658652921412769.8,3,1,2290267770587668.5,3180000000000000.0,13.9,26.1,7.68735e+16,46.4698,37.5777,12.9134,26.2898,715176392577451.1,818551126279227.1,1276081607063982.8,2566006989942539.0,98.8,99.9,272.8,283.2,0.00179,0.00674,MS&T,Indianapolis,2015-03-23,2015-03-25,Certification Report EDNS04000123846,,,,,,,
[...]
167,01P11CM112,1,CFM International,CFM56-7B22E,Tech Insertion,TF,5.3,24.2,101.0,,,1.004,0.832,0.291,0.099,377.0,43.27,13.83,18.7,0.67,519.0,914.0,1176.0,17.9,3,1,41.5,29.3,1.13,0.83,41.5,3,1,51.2,71.2,2.9,12.9,5175.0,431000000000000.0,407000000000000.0,47900000000000.0,43800000000000.0,431000000000000.0,3,1,723000000000000.0,1010000000000000.0,6.6,15.0,7.3e+16,50.6,36.9,1.75,1.34,1320000000000000.0,1380000000000000.0,273000000000000.0,269000000000000.0,99.5,100.2,295.5,311.8,0.00658,0.01217,Safran Aircraft Engines,"Villaroche, France",2019-07-25,2019-07-30,Engine 849-166/1,"Certification Report CR-2097/3 SUPPLEMENT 2-5B, CR-2097/3 SUPPLEMENT 2-7B",,,,,,
168,01P11CM113,1,CFM International,CFM56-7B22E/B1,Tech Insertion,TF,5.3,24.2,101.0,,,1.004,0.832,0.291,0.099,377.0,43.27,13.83,18.7,0.67,519.0,914.0,1176.0,17.9,3,1,41.5,29.3,1.13,0.83,41.5,3,1,51.2,71.2,2.9,12.9,5175.0,431000000000000.0,407000000000000.0,47900000000000.0,43800000000000.0,431000000000000.0,3,1,723000000000000.0,1010000000000000.0,6.6,15.0,7.3e+16,50.6,36.9,1.75,1.34,1320000000000000.0,1380000000000000.0,273000000000000.0,269000000000000.0,99.5,100.2,295.5,311.8,0.00658,0.01217,Safran Aircraft Engines,"Villaroche, France",2019-07-25,2019-07-30,Engine 849-166/1,"Certification Report CR-2097/3 SUPPLEMENT 2-5B, CR-2097/3 SUPPLEMENT 2-7B",,,,,,
169,01P11CM114,1,CFM International,CFM56-7B24E,Tech Insertion,TF,5.3,25.6,107.6,,,1.086,0.895,0.308,0.103,398.0,43.27,13.83,18.7,0.67,519.0,1114.0,1434.0,22.5,3,1,48.6,33.6,1.29,0.8,48.6,3,1,59.6,82.8,3.5,16.3,6408.0,428000000000000.0,424000000000000.0,54600000000000.0,36900000000000.0,431000000000000.0,3,1,739000000000000.0,1030000000000000.0,7,16.6,7.95e+16,58.3,41.7,2.0,1.24,1240000000000000.0,1390000000000000.0,310000000000000.0,212000000000000.0,99.5,100.2,295.5,311.8,0.00658,0.01217,Safran Aircraft Engines,"Villaroche, France",2019-07-25,2019-07-30,Engine 849-166/1,"Certification Report CR-2097/3 SUPPLEMENT 2-5B, CR-2097/3 SUPPLEMENT 2-7B",,,,,,
170,01P11CM115,1,CFM International,CFM56-7B24E/B1,Tech Insertion,TF,5.3,25.6,107.6,,,1.086,0.895,0.308,0.103,398.0,43.27,13.83,18.7,0.67,519.0,1114.0,1434.0,22.5,3,1,48.6,33.6,1.29,0.8,48.6,3,1,59.6,82.8,3.5,16.3,6408.0,428000000000000.0,424000000000000.0,54600000000000.0,36900000000000.0,431000000000000.0,3,1,739000000000000.0,1030000000000000.0,7,16.6,7.95e+16,58.3,41.7,2.0,1.24,1240000000000000.0,1390000000000000.0,310000000000000.0,212000000000000.0,99.5,100.2,295.5,311.8,0.00658,0.01217,Safran Aircraft Engines,"Villaroche, France",2019-07-25,2019-07-30,Engine 849-166/1,"Certification Report CR-2097/3 SUPPLEMENT 2-5B, CR-2097/3 SUPPLEMENT 2-7B",,,,,,
171,01P11CM116,1,CFM International,CFM56-7B26E,Tech Insertion,TF,5.1,27.7,117.0,,,1.213,0.986,0.331,0.108,429.0,43.27,13.83,18.7,0.67,519.0,1504.0,1936.0,31.6,3,1,61.8,40.3,1.57,0.75,61.8,3,1,73.9,103.0,4.8,23.3,8646.0,415000000000000.0,433000000000000.0,65400000000000.0,29500000000000.0,433000000000000.0,3,1,750000000000000.0,1040000000000000.0,7.7,19.3,8.77e+16,72.3,49.2,2.42,1.11,1100000000000000.0,1340000000000000.0,369000000000000.0,154000000000000.0,99.5,100.2,295.5,311.8,0.00658,0.01217,Safran Aircraft Engines,"Villaroche, France",2019-07-25,2019-07-30,Engine 849-166/1,"Certification Report CR-2097/3 SUPPLEMENT 2-5B, CR-2097/3 SUPPLEMENT 2-7B",,,,,,
172,01P11CM117,1,CFM International,CFM56-7B26E/B1,Tech Insertion,TF,5.1,27.7,117.0,,,1.213,0.986,0.331,0.108,429.0,43.27,13.83,18.7,0.67,519.0,1504.0,1936.0,31.6,3,1,61.8,40.3,1.57,0.75,61.8,3,1,73.9,103.0,4.8,23.3,8646.0,415000000000000.0,433000000000000.0,65400000000000.0,29500000000000.0,433000000000000.0,3,1,750000000000000.0,1040000000000000.0,7.7,19.3,8.77e+16,72.3,49.2,2.42,1.11,1100000000000000.0,1340000000000000.0,369000000000000.0,154000000000000.0,99.5,100.2,295.5,311.8,0.00658,0.01217,Safran Aircraft Engines,"Villaroche, France",2019-07-25,2019-07-30,Engine 849-166/1,"Certification Report CR-2097/3 SUPPLEMENT 2-5B, CR-2097/3 SUPPLEMENT 2-7B",,,,,,
173,01P11CM118,1,CFM International,CFM56-7B26E/B2,Tech Insertion,TF,5.1,27.7,117.0,,,1.213,0.986,0.331,0.108,429.0,43.27,13.83,18.7,0.67,519.0,1504.0,1936.0,31.6,3,1,61.8,40.3,1.57,0.75,61.8,3,1,73.9,103.0,4.8,23.3,8646.0,415000000000000.0,433000000000000.0,65400000000000.0,29500000000000.0,433000000000000.0,3,1,750000000000000.0,1040000000000000.0,7.7,19.3,8.77e+16,72.3,49.2,2.42,1.11,1100000000000000.0,1340000000000000.0,369000000000000.0,154000000000000.0,99.5,100.2,295.5,311.8,0.00658,0.01217,Safran Aircraft Engines,"Villaroche, France",2019-07-25,2019-07-30,Engine 849-166/1,"Certification Report CR-2097/3 SUPPLEMENT 2-5B, CR-2097/3 SUPPLEMENT 2-7B",,,,,,
174,01P11CM119,1,CFM International,CFM56-7B26E/F,Tech Insertion,TF,5.1,27.7,117.0,,,1.213,0.986,0.331,0.108,429.0,43.27,13.83,18.7,0.67,519.0,1504.0,1936.0,31.6,3,1,61.8,40.3,1.57,0.75,61.8,3,1,73.9,103.0,4.8,23.3,8646.0,415000000000000.0,433000000000000.0,65400000000000.0,29500000000000.0,433000000000000.0,3,1,750000000000000.0,1040000000000000.0,7.7,19.3,8.77e+16,72.3,49.2,2.42,1.11,1100000000000000.0,1340000000000000.0,369000000000000.0,154000000000000.0,99.5,100.2,295.5,311.8,0.00658,0.01217,Safran Aircraft Engines,"Villaroche, France",2019-07-25,2019-07-30,Engine 849-166/1,"Certification Report CR-2097/3 SUPPLEMENT 2-5B, CR-2097/3 SUPPLEMENT 2-7B",,,,,,
175,01P11CM120,1,CFM International,CFM56-7B26E/B2F,Tech Insertion,TF,5.1,27.7,117.0,,,1.213,0.986,0.331,0.108,429.0,43.27,13.83,18.7,0.67,519.0,1504.0,1936.0,31.6,3,1,61.8,40.3,1.57,0.75,61.8,3,1,73.9,103.0,4.8,23.3,8646.0,415000000000000.0,433000000000000.0,65400000000000.0,29500000000000.0,433000000000000.0,3,1,750000000000000.0,1040000000000000.0,7.7,19.3,8.77e+16,72.3,49.2,2.42,1.11,1100000000000000.0,1340000000000000.0,369000000000000.0,154000000000000.0,99.5,100.2,295.5,311.8,0.00658,0.01217,Safran Aircraft Engines,"Villaroche, France",2019-07-25,2019-07-30,Engine 849-166/1,"Certification Report CR-2097/3 SUPPLEMENT 2-5B, CR-2097/3 SUPPLEMENT 2-7B",,,,,,
176,01P11CM121,1,CFM International,CFM56-7B27E,Tech Insertion,TF,5.1,29.0,121.4,,,1.293,1.031,0.343,0.11,445.0,43.27,13.83,18.7,0.67,519.0,1788.0,2301.0,38.3,3,1,70.8,44.0,1.72,0.74,70.8,3,1,83.2,116.0,5.7,28.2,10104.0,402000000000000.0,433000000000000.0,71000000000000.0,26600000000000.0,433000000000000.0,3,1,751000000000000.0,1040000000000000.0,8.0,20.5,9.12e+16,82.1,53.2,2.65,1.07,1010000000000000.0,1300000000000000.0,398000000000000.0,134000000000000.02,99.5,100.2,295.5,311.8,0.00658,0.01217,Safran Aircraft Engines,"Villaroche, France",2019-07-25,2019-07-30,Engine 849-166/1,"Certification Report CR-2097/3 SUPPLEMENT 2-5B, CR-2097/3 SUPPLEMENT 2-7B",,,,,,
177,01P11CM122,1,CFM International,CFM56-7B27E/B1,Tech Insertion,TF,5.1,29.0,121.4,,,1.293,1.031,0.343,0.11,445.0,43.27,13.83,18.7,0.67,519.0,1788.0,2301.0,38.3,3,1,70.8,44.0,1.72,0.74,70.8,3,1,83.2,116.0,5.7,28.2,10104.0,402000000000000.0,433000000000000.0,71000000000000.0,26600000000000.0,433000000000000.0,3,1,751000000000000.0,1040000000000000.0,8.0,20.5,9.12e+16,82.1,53.2,2.65,1.07,1010000000000000.0,1300000000000000.0,398000000000000.0,134000000000000.02,99.5,100.2,295.5,311.8,0.00658,0.01217,Safran Aircraft Engines,"Villaroche, France",2019-07-25,2019-07-30,Engine 849-166/1,"Certification Report CR-2097/3 SUPPLEMENT 2-5B, CR-2097/3 SUPPLEMENT 2-7B",,,,,,
178,01P11CM123,1,CFM International,CFM56-7B27E/B3,Tech Insertion,TF,5.1,29.0,121.4,,,1.293,1.031,0.343,0.11,445.0,43.27,13.83,18.7,0.67,519.0,1788.0,2301.0,38.3,3,1,70.8,44.0,1.72,0.74,70.8,3,1,83.2,116.0,5.7,28.2,10104.0,402000000000000.0,433000000000000.0,71000000000000.0,26600000000000.0,433000000000000.0,3,1,751000000000000.0,1040000000000000.0,8.0,20.5,9.12e+16,82.1,53.2,2.65,1.07,1010000000000000.0,1300000000000000.0,398000000000000.0,134000000000000.02,99.5,100.2,295.5,311.8,0.00658,0.01217,Safran Aircraft Engines,"Villaroche, France",2019-07-25,2019-07-30,Engine 849-166/1,"Certification Report CR-2097/3 SUPPLEMENT 2-5B, CR-2097/3 SUPPLEMENT 2-7B",,,,,,
179,01P11CM124,1,CFM International,CFM56-7B27AE,Tech Insertion,TF,5.1,29.0,121.4,,,1.293,1.031,0.343,0.11,445.0,43.27,13.83,18.7,0.67,519.0,1788.0,2301.0,38.3,3,1,70.8,44.0,1.72,0.74,70.8,3,1,83.2,116.0,5.7,28.2,10104.0,402000000000000.0,433000000000000.0,71000000000000.0,26600000000000.0,433000000000000.0,3,1,751000000000000.0,1040000000000000.0,8.0,20.5,9.12e+16,82.1,53.2,2.65,1.07,1010000000000000.0,1300000000000000.0,398000000000000.0,134000000000000.02,99.5,100.2,295.5,311.8,0.00658,0.01217,Safran Aircraft Engines,"Villaroche, France",2019-07-25,2019-07-30,Engine 849-166/1,"Certification Report CR-2097/3 SUPPLEMENT 2-5B, CR-2097/3 SUPPLEMENT 2-7B",,,,,,
180,01P11CM125,1,CFM International,CFM56-7B27E/F,Tech Insertion,TF,5.1,29.0,121.4,,,1.293,1.031,0.343,0.11,445.0,43.27,13.83,18.7,0.67,519.0,1788.0,2301.0,38.3,3,1,70.8,44.0,1.72,0.74,70.8,3,1,83.2,116.0,5.7,28.2,10104.0,402000000000000.0,433000000000000.0,71000000000000.0,26600000000000.0,433000000000000.0,3,1,751000000000000.0,1040000000000000.0,8.0,20.5,9.12e+16,82.1,53.2,2.65,1.07,1010000000000000.0,1300000000000000.0,398000000000000.0,134000000000000.02,99.5,100.2,295.5,311.8,0.00658,0.01217,Safran Aircraft Engines,"Villaroche, France",2019-07-25,2019-07-30,Engine 849-166/1,"Certification Report CR-2097/3 SUPPLEMENT 2-5B, CR-2097/3 SUPPLEMENT 2-7B",,,,,,
181,01P11CM126,1,CFM International,CFM56-7B27E/B1F,Tech Insertion,TF,5.1,29.0,121.4,,,1.293,1.031,0.343,0.11,445.0,43.27,13.83,18.7,0.67,519.0,1788.0,2301.0,38.3,3,1,70.8,44.0,1.72,0.74,70.8,3,1,83.2,116.0,5.7,28.2,10104.0,402000000000000.0,433000000000000.0,71000000000000.0,26600000000000.0,433000000000000.0,3,1,751000000000000.0,1040000000000000.0,8.0,20.5,9.12e+16,82.1,53.2,2.65,1.07,1010000000000000.0,1300000000000000.0,398000000000000.0,134000000000000.02,99.5,100.2,295.5,311.8,0.00658,0.01217,Safran Aircraft Engines,"Villaroche, France",2019-07-25,2019-07-30,Engine 849-166/1,"Certification Report CR-2097/3 SUPPLEMENT 2-5B, CR-2097/3 SUPPLEMENT 2-7B",,,,,,
182,01P20CM127,1,CFM International,LEAP-1A24/24E1/23,TAPS II,TF,11.1,29.98572,106.801,,,0.744721,0.61607,0.219156,0.0869406,300.824,43.26,13.69,16.5,0.66,150.0,160.0,205.9436,3.216,3,1,1.14406,0.86605,1.2306,0.634958,7.65752,3,1,2.40687,3.34565,0.142308,0.652586,257.057,7.90494e+10,6.85346e+10,42461298234559.44,3.68867e+12,220189394149276.72,3,1,25670873375410.336,35683586257352.086,0.243339,0.569076,2741684824173240.0,1.35458,1.03599,1.85003,0.788067,1.07147e+11,9.23486e+10,276096126031350.3,13005424535946.305,97.8,98.8,274.6,279.8,0.002,0.0032,CFM International,"PTO, Ohio",2016-11-21,2016-12-02,Certification Report CRL-2201_2/Rev. 4,Engine S/N 600-104,,,,,,
183,01P20CM128,1,CFM International,LEAP-1A26/26E1,TAPS II,TF,10.8,33.27215,120.636,,,0.86094,0.709927,0.243731,0.0911006,330.482,43.26,13.69,16.5,0.66,150.0,160.0,205.9436,3.41811,3,1,1.35756,1.08244,1.97358,0.574179,7.60322,3,1,2.88115,4.00494,0.195021,0.96036,347.57,8.91285e+10,7.66821e+10,68930572878845.75,3710158486647.142,218758817340458.34,3,1,37881014847622.99,52656400955828.45,0.401761,1.02193,4569805543138653.0,1.62703,1.23518,2.98856,0.683861,1.19654e+11,1.00053e+11,456827575055365.44,10901015768971.475,97.8,98.8,274.6,279.8,0.002,0.0032,CFM International,"PTO, Ohio",2016-11-21,2016-12-02,Certification Report CRL-2201_2/Rev. 4,Engine S/N 600-104,,,,,,
184,01P20CM129,1,CFM International,LEAP-1A26CJ,TAPS II,TF,10.8,33.27215,120.636,,,0.86094,0.709927,0.243731,0.0911006,330.482,43.26,13.69,16.5,0.66,150.0,160.0,205.9436,3.41811,3,1,1.35756,1.08244,1.97358,0.574179,7.60322,3,1,2.88115,4.00494,0.195021,0.96036,347.57,8.91285e+10,7.66821e+10,68930572878845.75,3710158486647.142,218758817340458.34,3,1,37881014847622.99,52656400955828.45,0.401761,1.02193,4569805543138653.0,1.62703,1.23518,2.98856,0.683861,1.19654e+11,1.00053e+11,456827575055365.44,10901015768971.475,97.8,98.8,274.6,279.8,0.002,0.0032,CFM International,"PTO, Ohio",2016-11-21,2016-12-02,Certification Report CRL-2201_2/Rev. 4,Engine S/N 600-104,,,,,,
185,01P20CM130,1,CFM International,LEAP-1A29,TAPS II,TF,10.7,35.5023,130.288,,,0.945866,0.777285,0.261129,0.094368,352.213,43.26,13.69,16.5,0.66,150.0,160.0,205.9436,3.54866,3,1,1.82105,1.15755,2.93742,0.582452,7.57234,3,1,3.5379,4.91784,0.266392,1.40395,460.947,1.16697e+11,7.86991e+10,98454418611781.95,6373076393434.013,217944757656746.0,3,1,54656907991442.6,75975685281404.8,0.632102,1.7375,7121160313446392.0,2.18947,1.37035,4.42472,0.687332,1.56349e+11,1.06573e+11,644062645541261.0,17893237815205.438,97.8,98.8,274.6,279.8,0.002,0.0032,CFM International,"PTO, Ohio",2016-11-21,2016-12-02,Certification Report CRL-2201_2/Rev. 4,Engine S/N 600-104,,,,,,
186,01P20CM131,1,CFM International,LEAP-1A29CJ,TAPS II,TF,10.7,35.5023,130.288,,,0.945866,0.777285,0.261129,0.094368,352.213,43.26,13.69,16.5,0.66,150.0,160.0,205.9436,3.54866,3,1,1.82105,1.15755,2.93742,0.582452,7.57234,3,1,3.5379,4.91784,0.266392,1.40395,460.947,1.16697e+11,7.86991e+10,98454418611781.95,6373076393434.013,217944757656746.0,3,1,54656907991442.6,75975685281404.8,0.632102,1.7375,7121160313446392.0,2.18947,1.37035,4.42472,0.687332,1.56349e+11,1.06573e+11,644062645541261.0,17893237815205.438,97.8,98.8,274.6,279.8,0.002,0.0032,CFM International,"PTO, Ohio",2016-11-21,2016-12-02,Certification Report CRL-2201_2/Rev. 4,Engine S/N 600-104,,,,,,
187,01P20CM132,1,CFM International,LEAP-1A35A/33/33B2/32/30,TAPS II,TF,10.45,38.51118,143.055,,,1.06165,0.869312,0.283854,0.0980881,380.481,43.26,13.69,16.5,0.66,150.0,160.0,205.9436,3.71002,3,1,2.97546,1.36359,4.81087,0.621811,7.53804,3,1,4.97735,6.91875,0.440222,2.64055,712.033,1.82264e+11,8.9438e+10,150444133193931.88,11523783047847.719,217040395993263.25,3,1,84098661399510.9,116901113983195.58,1.10471,3.49881,1.20307e+16,3.5855,1.63505,7.06672,0.769434,2.43711e+11,1.20036e+11,922268968907276.5,45856960227215.08,97.8,98.8,274.6,279.8,0.002,0.0032,CFM International,"PTO, Ohio",2016-11-21,2016-12-02,Certification Report CRL-2201_2/Rev. 4,Engine S/N 600-104,,,,,,
188,01P20CM133,1,CFM International,LEAP-1B21,TAPS II,TF,8.5203,36.818,111.268,,,0.876656,0.721969,0.245381,0.0890592,329.943,43.27,13.84,14.8,1.97,840.0,66.0,85.0,1.35515,3,1,0.014331,0.00986948,1.99043,0.225902,3.76269,3,1,1.34875,1.87483,0.0831418,0.389135,150.073,2.58574e+10,2.94687e+10,76649387034303.17,24766586241394.082,117010723525164.25,3,1,71526839155811.3,99425686899932.31,0.702097,1.68246,7958635829716858.0,0.0157741,0.00986948,3.13663,0.512918,4.09664e+10,2.94687e+10,559890584256458.7,472999508086754.56,98.02,98.16,290.6,296.5,0.0048,0.0079,CFM International,"PTO, Ohio",2016-03-08,2016-03-09,Certification Report CRL-2201b/Rev. 5,Engine S/N 602-109/1,,,,,,
189,01P20CM134,1,CFM International,LEAP-1B23,TAPS II,TF,8.4621,37.924,115.24,,,0.916195,0.752107,0.253483,0.0906997,340.086,43.27,13.84,14.8,1.97,840.0,66.0,85.0,1.37916,3,1,0.0171369,0.0119438,2.33835,0.212637,3.76463,3,1,1.51151,2.10108,0.0968423,0.462456,174.187,2.61296e+10,2.80996e+10,88922307121812.52,23004439086709.99,117065909295705.8,3,1,75220306913236.3,104559781641974.28,0.762433,1.87095,8668394739476040.0,0.0189487,0.0119438,3.62365,0.482799,4.0012e+10,2.80996e+10,624042423913134.8,439345506180927.56,98.02,98.16,290.6,296.5,0.0048,0.0079,CFM International,"PTO, Ohio",2016-03-08,2016-03-09,Certification Report CRL-2201b/Rev. 5,Engine S/N 602-109/1,,,,,,
190,01P20CM135,1,CFM International,LEAP-1B25,TAPS II,TF,8.3551,40.135,119.15,,,0.959828,0.784489,0.260136,0.0905434,347.546,43.27,13.84,14.8,1.97,840.0,66.0,85.0,1.40218,3,1,0.0262803,0.0127452,2.70405,0.204647,3.76641,3,1,1.67944,2.33451,0.111938,0.546344,200.106,2.71258e+10,2.68338e+10,100105527836655.81,21719511988829.54,117116659361879.02,3,1,78233657448305.78,108748481301509.3,0.819278,2.06249,9321546112747244.0,0.0290692,0.014014,4.1216,0.464656,4.12472e+10,4.30934e+10,674621521560229.4,414805591994678.44,98.02,98.16,290.6,296.5,0.0048,0.0079,CFM International,"PTO, Ohio",2016-03-08,2016-03-09,Certification Report CRL-2201b/Rev. 5,Engine S/N 602-109/1,,,,,,
191,01P20CM136,1,CFM International,LEAP-1B27,TAPS II,TF,8.3489,40.491,124.715,,,1.01354,0.825993,0.273101,0.0946018,364.723,43.27,13.84,14.8,1.97,840.0,66.0,85.0,1.43394,3,1,0.0354283,0.0132134,3.23656,0.198419,3.76876,3,1,1.95942,2.72369,0.138546,0.700498,244.369,2.79712e+10,2.62411e+10,111484442280863.77,20005878082699.137,117183433586544.64,3,1,82296989150248.0,114396704406794.56,0.904528,2.37188,1.02637e+16,0.0390477,0.014535,4.83249,0.418729,4.51317e+10,4.15355e+10,713199285396326.6,305219636454297.7,98.02,98.16,290.6,296.5,0.0048,0.0079,CFM International,"PTO, Ohio",2016-03-08,2016-03-09,Certification Report CRL-2201b/Rev. 5,Engine S/N 602-109/1,,,,,,
192,01P20CM137,1,CFM International,LEAP-1B28B2C,TAPS II,TF,8.3489,40.491,124.715,,,1.01354,0.825993,0.273101,0.0946018,364.723,43.27,13.84,14.8,1.97,840.0,66.0,85.0,1.43394,3,1,0.0354283,0.0132134,3.23656,0.198419,3.76876,3,1,1.95942,2.72369,0.138546,0.700498,244.369,2.79712e+10,2.62411e+10,111484442280863.77,20005878082699.137,117183433586544.64,3,1,82296989150248.0,114396704406794.56,0.904528,2.37188,1.02637e+16,0.0390477,0.014535,4.83249,0.418729,4.51317e+10,4.15355e+10,713199285396326.6,305219636454297.7,98.02,98.16,290.6,296.5,0.0048,0.0079,CFM International,"PTO, Ohio",2016-03-08,2016-03-09,Certification Report CRL-2201b/Rev. 5,Engine S/N 602-109/1,,,,,,
193,01P20CM138,1,CFM International,LEAP-1B28BBJ1,TAPS II,TF,8.2938,41.991,130.409,,,1.07473,0.872562,0.285171,0.0969101,379.938,43.27,13.84,14.8,1.97,840.0,66.0,85.0,1.4653,3,1,0.0556832,0.0142508,3.80929,0.202028,3.809,3,1,2.26526,3.14882,0.170806,0.901064,295.409,2.94372e+10,2.60052e+10,118319658297562.0,19116915068214.527,117245891819796.62,3,1,84291617567929.94,117169332176716.61,0.975923,2.68553,1.09923e+16,0.0614292,0.0156925,5.55544,0.42165,4.79778e+10,4.16521e+10,711814895031311.5,280882969465448.97,98.02,98.16,290.6,296.5,0.0048,0.0079,CFM International,"PTO, Ohio",2016-03-08,2016-03-09,Certification Report CRL-2201b/Rev. 5,Engine S/N 602-109/1,,,,,,
194,01P20CM139,1,CFM International,LEAP-1B28BBJ2,TAPS II,TF,8.3489,40.491,124.715,,,1.01354,0.825993,0.273101,0.0946018,364.723,43.27,13.84,14.8,1.97,840.0,66.0,85.0,1.43394,3,1,0.0354283,0.0132134,3.23656,0.198419,3.76876,3,1,1.95942,2.72369,0.138546,0.700498,244.369,2.79712e+10,2.62411e+10,111484442280863.77,20005878082699.137,117183433586544.64,3,1,82296989150248.0,114396704406794.56,0.904528,2.37188,1.02637e+16,0.0390477,0.014535,4.83249,0.418729,4.51317e+10,4.15355e+10,713199285396326.6,305219636454297.7,98.02,98.16,290.6,296.5,0.0048,0.0079,CFM International,"PTO, Ohio",2016-03-08,2016-03-09,Certification Report CRL-2201b/Rev. 5,Engine S/N 602-109/1,,,,,,
195,01P20CM140,1,CFM International,LEAP-1B28/28B1/28B2/28B3,TAPS II,TF,8.2938,41.991,130.409,,,1.07473,0.872562,0.285171,0.0969101,379.938,43.27,13.84,14.8,1.97,840.0,66.0,85.0,1.4653,3,1,0.0556832,0.0142508,3.80929,0.202028,3.809,3,1,2.26526,3.14882,0.170806,0.901064,295.409,2.94372e+10,2.60052e+10,118319658297562.0,19116915068214.527,117245891819796.62,3,1,84291617567929.94,117169332176716.61,0.975923,2.68553,1.09923e+16,0.0614292,0.0156925,5.55544,0.42165,4.79778e+10,4.16521e+10,711814895031311.5,280882969465448.97,98.02,98.16,290.6,296.5,0.0048,0.0079,CFM International,"PTO, Ohio",2016-03-08,2016-03-09,Certification Report CRL-2201b/Rev. 5,Engine S/N 602-109/1,,,,,,